{
  "resourceType":"Bundle",
  "type":"transaction",
  "entry":[
    {
      "resource":{
        "resourceType":"Patient",
        "id":"11000100-1",
        "meta":{
          "profile":[
            "http://hl7.org/fhir/profiles/Patient"
          ]
        },
        "birthDate":"2017-01-01"
      },
      "request":{
        "method":"PUT",
        "url":"Patient/11000100-1"
      }
    },
    {
      "resource":{
        "resourceType":"Observation",
        "id":"11000100-3",
        "status":"final",
        "code":{
          "coding":[
            {
              "system":"http://loinc.org",
              "code":"27129-6",
              "display":"Lead Tests"
            }
          ]
        },
        "subject":{
          "reference":"Patient/11000100-1"
        },
        "effectiveDateTime":"2018-01-01T09:30:30",
        "contained":[
          {
            "resourceType":"Provenance",
            "id":"11000100-4",
            "target":[
              {
                "reference":"Observation/11000100-3"
              }
            ],
            "entity":[
              {
                "role":"source",
                "whatReference":{
                  "reference":"Claim/11000100-5#1"
                }
              }
            ]
          }
        ]
      },
      "request":{
        "method":"PUT",
        "url":"Observation/11000100-3"
      }
    }
  ]
}
